participant_id,rt,key_press,trial_type,trial_index,trial_index_global,time_elapsed,internal_chunk_id,responses,correct,stimulus,block_value,response,stim_type
5555555,26475,70,text,0,0,26575,0-0,,,,,,
5555555,25781,,survey-text,0,1,53370,0-0,{Q0:5555555},,,,,
5555555,238776,74,text,0,2,293288,0-0,,,,,,
5555555,115,74,text,0,3,294498,0-0,,,,,,
5555555,68,74,categorize,0,4,295683,0-0,,false,static/img/sad.gre.incon.08.jpg,emo_sad_prad,,incon
5555555,55796,74,categorize,1,5,353013,0-0,,false,static/img/sad.gre.incon.10.jpg,emo_sad_prad,,incon
5555555,123,74,categorize,2,6,354734,0-0,,false,static/img/sad.red.congr.06.jpg,emo_sad_prad,,con
5555555,71,74,categorize,3,7,356400,0-0,,true,static/img/hap.gre.congr.08.jpg,emo_sad_prad,,con
5555555,382,74,categorize,4,8,358346,0-0,,false,static/img/sad.gre.incon.03.jpg,emo_sad_prad,,incon
5555555,24,74,categorize,5,9,359895,0-0,,true,static/img/hap.red.incon.01.jpg,emo_sad_prad,,incon
5555555,59,74,categorize,6,10,361469,0-0,,false,static/img/sad.gre.incon.04.jpg,emo_sad_prad,,incon
5555555,38,74,categorize,7,11,363030,0-0,,false,static/img/sad.gre.incon.06.jpg,emo_sad_prad,,incon
5555555,63,74,categorize,8,12,364698,0-0,,true,static/img/hap.red.incon.02.jpg,emo_sad_prad,,incon
5555555,16,74,categorize,9,a13,366277,0-0,,true,static/img/hap.red.incon.12.jpg,emo_sad_prad,,incon
5555555,136,74,categorize,10,14,367917,0-0,,false,static/img/sad.gre.incon.03.jpg,emo_sad_prad,,incon
5555555,275,74,categorize,11,15,369655,0-0,,false,static/img/sad.gre.incon.05.jpg,emo_sad_prad,,incon
5555555,80,74,categorize,12,16,371290,0-0,,true,static/img/hap.gre.congr.02.jpg,emo_sad_prad,,con
5555555,224,74,categorize,13,17,373000,0-0,,true,static/img/hap.red.incon.08.jpg,emo_sad_prad,,incon
5555555,184,74,categorize,14,18,374701,0-0,,false,static/img/sad.gre.incon.06.jpg,emo_sad_prad,,incon
5555555,147,74,categorize,15,19,376400,0-0,,true,static/img/hap.gre.congr.12.jpg,emo_sad_prad,,con
5555555,120,74,categorize,16,20,378047,0-0,,false,static/img/sad.red.congr.01.jpg,emo_sad_prad,,con
5555555,162,74,categorize,17,21,379725,0-0,,true,static/img/hap.gre.congr.02.jpg,emo_sad_prad,,con
5555555,224,74,categorize,18,22,381424,0-0,,true,static/img/hap.gre.congr.01.jpg,emo_sad_prad,,con
5555555,132,74,categorize,19,23,383114,0-0,,true,static/img/hap.red.incon.09.jpg,emo_sad_prad,,incon
5555555,155,74,text,0,24,384786,0-0,,,,,,
5555555,203,74,single-stim,0,25,386094,0-0,,,static/img/hap.red.incon.12.jpg,emo_sad,hap.red,incon
5555555,185,74,single-stim,1,26,387391,0-0,,,static/img/sad.gre.incon.10.jpg,emo_sad,sad.gre,incon
5555555,135,74,single-stim,2,27,388669,0-0,,,static/img/hap.red.incon.06.jpg,emo_sad,hap.red,incon
5555555,122,74,single-stim,3,28,389924,0-0,,,static/img/sad.gre.incon.13.jpg,emo_sad,sad.gre,incon
5555555,158,74,single-stim,4,29,391190,0-0,,,static/img/hap.red.incon.08.jpg,emo_sad,hap.red,incon
5555555,144,74,single-stim,5,30,392453,0-0,,,static/img/hap.red.incon.01.jpg,emo_sad,hap.red,incon
5555555,142,74,single-stim,6,31,393740,0-0,,,static/img/hap.gre.congr.07.jpg,emo_sad,hap.gre,con
5555555,120,74,single-stim,7,32,394980,0-0,,,static/img/hap.red.incon.07.jpg,emo_sad,hap.red,incon
5555555,101,74,single-stim,8,33,396268,0-0,,,static/img/sad.gre.incon.01.jpg,emo_sad,sad.gre,incon
5555555,120,74,single-stim,9,34,397503,0-0,,,static/img/hap.gre.congr.12.jpg,emo_sad,hap.gre,con
5555555,143,74,single-stim,10,35,398779,0-0,,,static/img/hap.gre.congr.10.jpg,emo_sad,hap.gre,con
5555555,133,74,single-stim,11,36,400052,0-0,,,static/img/sad.red.congr.02.jpg,emo_sad,sad.red,con
5555555,129,74,single-stim,12,37,401341,0-0,,,static/img/sad.gre.incon.02.jpg,emo_sad,sad.gre,incon
5555555,147,74,single-stim,13,38,402612,0-0,,,static/img/hap.gre.congr.01.jpg,emo_sad,hap.gre,con
5555555,166,74,single-stim,14,39,403943,0-0,,,static/img/sad.red.congr.09.jpg,emo_sad,sad.red,con
5555555,252,74,single-stim,15,40,405265,0-0,,,static/img/sad.red.congr.05.jpg,emo_sad,sad.red,con
5555555,10,74,single-stim,16,41,406404,0-0,,,static/img/hap.gre.congr.14.jpg,emo_sad,hap.gre,con
5555555,97,74,single-stim,17,42,407665,0-0,,,static/img/sad.red.congr.11.jpg,emo_sad,sad.red,con
5555555,12,74,single-stim,18,43,408818,0-0,,,static/img/hap.gre.congr.05.jpg,emo_sad,hap.gre,con
5555555,139,74,single-stim,19,44,410111,0-0,,,static/img/sad.gre.incon.11.jpg,emo_sad,sad.gre,incon
5555555,159,74,single-stim,20,45,411393,0-0,,,static/img/sad.gre.incon.09.jpg,emo_sad,sad.gre,incon
5555555,83,74,single-stim,21,46,412627,0-0,,,static/img/hap.red.incon.11.jpg,emo_sad,hap.red,incon
5555555,167,74,single-stim,22,47,413913,0-0,,,static/img/sad.gre.incon.03.jpg,emo_sad,sad.gre,incon
5555555,148,74,single-stim,23,48,415190,0-0,,,static/img/hap.gre.congr.06.jpg,emo_sad,hap.gre,con
5555555,59,74,single-stim,24,49,416417,0-0,,,static/img/sad.gre.incon.12.jpg,emo_sad,sad.gre,incon
5555555,137,74,single-stim,25,50,417652,0-0,,,static/img/sad.gre.incon.04.jpg,emo_sad,sad.gre,incon
5555555,9,74,single-stim,26,51,418809,0-0,,,static/img/sad.red.congr.12.jpg,emo_sad,sad.red,con
5555555,149,74,single-stim,27,52,420103,0-0,,,static/img/sad.red.congr.14.jpg,emo_sad,sad.red,con
5555555,108,74,single-stim,28,53,421392,0-0,,,static/img/sad.red.congr.10.jpg,emo_sad,sad.red,con
5555555,102,74,single-stim,29,54,422705,0-0,,,static/img/hap.gre.congr.13.jpg,emo_sad,hap.gre,con
5555555,160,74,single-stim,30,55,424034,0-0,,,static/img/hap.red.incon.03.jpg,emo_sad,hap.red,incon
5555555,144,74,single-stim,31,56,425342,0-0,,,static/img/hap.red.incon.14.jpg,emo_sad,hap.red,incon
5555555,177,74,single-stim,32,57,426648,0-0,,,static/img/sad.red.congr.04.jpg,emo_sad,sad.red,con
5555555,278,74,single-stim,33,58,427978,0-0,,,static/img/hap.red.incon.05.jpg,emo_sad,hap.red,incon
5555555,262,74,single-stim,34,59,429315,0-0,,,static/img/hap.gre.congr.09.jpg,emo_sad,hap.gre,con
5555555,28,74,single-stim,35,60,430452,0-0,,,static/img/hap.gre.congr.04.jpg,emo_sad,hap.gre,con
5555555,143,74,single-stim,36,61,431722,0-0,,,static/img/hap.red.incon.02.jpg,emo_sad,hap.red,incon
5555555,165,74,single-stim,37,62,433053,0-0,,,static/img/sad.red.congr.03.jpg,emo_sad,sad.red,con
5555555,19,74,single-stim,38,63,434200,0-0,,,static/img/sad.red.congr.07.jpg,emo_sad,sad.red,con
5555555,18,74,single-stim,39,64,435333,0-0,,,static/img/sad.gre.incon.06.jpg,emo_sad,sad.gre,incon
5555555,60,74,single-stim,40,65,436528,0-0,,,static/img/hap.red.incon.04.jpg,emo_sad,hap.red,incon
5555555,107,74,single-stim,41,66,437869,0-0,,,static/img/hap.gre.congr.11.jpg,emo_sad,hap.gre,con
5555555,101,74,single-stim,42,67,439089,0-0,,,static/img/sad.red.congr.01.jpg,emo_sad,sad.red,con
5555555,7,74,single-stim,43,68,440214,0-0,,,static/img/sad.gre.incon.07.jpg,emo_sad,sad.gre,incon
5555555,170,74,single-stim,44,69,441519,0-0,,,static/img/hap.red.incon.10.jpg,emo_sad,hap.red,incon
5555555,37,74,single-stim,45,70,442696,0-0,,,static/img/hap.gre.congr.02.jpg,emo_sad,hap.gre,con
5555555,113,74,single-stim,46,71,443977,0-0,,,static/img/sad.red.congr.08.jpg,emo_sad,sad.red,con
5555555,120,74,single-stim,47,72,445216,0-0,,,static/img/sad.gre.incon.08.jpg,emo_sad,sad.gre,incon
5555555,48,74,single-stim,48,73,446487,0-0,,,static/img/sad.red.congr.13.jpg,emo_sad,sad.red,con
5555555,32,74,single-stim,49,74,447655,0-0,,,static/img/sad.gre.incon.14.jpg,emo_sad,sad.gre,incon
5555555,78,74,single-stim,50,75,448926,0-0,,,static/img/hap.gre.congr.03.jpg,emo_sad,hap.gre,con
5555555,106,74,single-stim,51,76,450159,0-0,,,static/img/sad.red.congr.06.jpg,emo_sad,sad.red,con
5555555,70,74,single-stim,52,77,451359,0-0,,,static/img/hap.gre.congr.08.jpg,emo_sad,hap.gre,con
5555555,109,74,single-stim,53,78,452631,0-0,,,static/img/hap.red.incon.13.jpg,emo_sad,hap.red,incon
5555555,146,74,single-stim,54,79,453891,0-0,,,static/img/sad.gre.incon.05.jpg,emo_sad,sad.gre,incon
5555555,112,74,single-stim,55,80,455117,0-0,,,static/img/hap.red.incon.09.jpg,emo_sad,hap.red,incon
5555555,45,74,text,0,81,456281,0-0,,,,,,
5555555,156,74,text,0,82,457546,0-0,,,,,,
5555555,81,74,text,0,83,458725,0-0,,,,,,
5555555,103,74,categorize,0,84,460027,0-0,,false,static/img/fea.red.congr.05.jpg,emo_fear_prac,,con
5555555,14,74,categorize,1,85,461572,0-0,,false,static/img/fea.red.congr.11.jpg,emo_fear_prac,,con
5555555,115,74,categorize,2,86,463193,0-0,,true,static/img/hap.gre.congr.01.jpg,emo_fear_prac,,con
5555555,151,74,categorize,3,87,464871,0-0,,false,static/img/fea.gre.incon.06.jpg,emo_fear_prac,,incon
5555555,217,74,categorize,4,88,466600,0-0,,true,static/img/hap.gre.congr.13.jpg,emo_fear_prac,,con
5555555,204,74,categorize,5,89,468318,0-0,,false,static/img/fea.red.congr.05.jpg,emo_fear_prac,,con
5555555,226,74,categorize,6,90,470024,0-0,,true,static/img/hap.red.incon.12.jpg,emo_fear_prac,,incon
5555555,216,74,categorize,7,91,471751,0-0,,true,static/img/hap.red.incon.08.jpg,emo_fear_prac,,incon
5555555,115,74,categorize,8,92,473403,0-0,,false,static/img/fea.gre.incon.06.jpg,emo_fear_prac,,incon
5555555,93,74,categorize,9,93,475028,0-0,,true,static/img/hap.gre.congr.09.jpg,emo_fear_prac,,con
5555555,138,74,categorize,10,94,476746,0-0,,false,static/img/fea.gre.incon.02.jpg,emo_fear_prac,,incon
5555555,124,74,categorize,11,95,478476,0-0,,false,static/img/fea.gre.incon.12.jpg,emo_fear_prac,,incon
5555555,114,74,categorize,12,96,480126,0-0,,false,static/img/fea.red.congr.05.jpg,emo_fear_prac,,con
5555555,183,74,categorize,13,97,481820,0-0,,true,static/img/hap.red.incon.07.jpg,emo_fear_prac,,incon
5555555,152,74,categorize,14,98,483546,0-0,,false,static/img/fea.red.congr.03.jpg,emo_fear_prac,,con
5555555,75,74,categorize,15,99,485160,0-0,,true,static/img/hap.gre.congr.01.jpg,emo_fear_prac,,con
5555555,41,74,categorize,16,100,486744,0-0,,true,static/img/hap.gre.congr.05.jpg,emo_fear_prac,,con
5555555,22,74,categorize,17,101,488288,0-0,,true,static/img/hap.gre.congr.11.jpg,emo_fear_prac,,con
5555555,287,74,categorize,18,102,490032,0-0,,false,static/img/fea.red.congr.02.jpg,emo_fear_prac,,con
5555555,55,74,categorize,19,103,491614,0-0,,true,static/img/hap.gre.congr.14.jpg,emo_fear_prac,,con
5555555,204,74,text,0,104,493364,0-0,,,,,,
5555555,153,74,single-stim,0,105,494633,0-0,,,static/img/hap.red.incon.02.jpg,emo_fear,hap.red,incon
5555555,303,74,single-stim,1,106,495988,0-0,,,static/img/fea.gre.incon.13.jpg,emo_fear,fear.gre,incon
5555555,24,74,single-stim,2,107,497117,0-0,,,static/img/fea.red.congr.12.jpg,emo_fear,fear.red,con
5555555,149,74,single-stim,3,108,498369,0-0,,,static/img/hap.gre.congr.02.jpg,emo_fear,hap.gre,con
5555555,160,74,single-stim,4,109,499638,0-0,,,static/img/hap.red.incon.13.jpg,emo_fear,hap.red,incon
5555555,141,74,single-stim,5,110,500954,0-0,,,static/img/fea.gre.incon.08.jpg,emo_fear,fear.gre,incon
5555555,67,74,single-stim,6,111,502125,0-0,,,static/img/hap.red.incon.03.jpg,emo_fear,hap.red,incon
5555555,121,74,single-stim,7,112,503466,0-0,,,static/img/fea.red.congr.14.jpg,emo_fear,fear.red,con
5555555,53,74,single-stim,8,113,504636,0-0,,,static/img/hap.red.incon.08.jpg,emo_fear,hap.red,incon
5555555,145,74,single-stim,9,114,505899,0-0,,,static/img/fea.gre.incon.02.jpg,emo_fear,fear.gre,incon
5555555,160,74,single-stim,10,115,507213,0-0,,,static/img/fea.red.congr.01.jpg,emo_fear,fear.red,con
5555555,127,74,single-stim,11,116,508452,0-0,,,static/img/hap.gre.congr.13.jpg,emo_fear,hap.gre,con
5555555,137,74,single-stim,12,117,509794,0-0,,,static/img/fea.gre.incon.10.jpg,emo_fear,fear.gre,incon
5555555,83,74,single-stim,13,118,511003,0-0,,,static/img/hap.gre.congr.04.jpg,emo_fear,hap.gre,con
5555555,80,74,single-stim,14,119,512199,0-0,,,static/img/hap.red.incon.14.jpg,emo_fear,hap.red,incon
5555555,170,74,single-stim,15,120,513474,0-0,,,static/img/hap.red.incon.05.jpg,emo_fear,hap.red,incon
5555555,207,74,single-stim,16,121,514813,0-0,,,static/img/hap.gre.congr.03.jpg,emo_fear,hap.gre,con
5555555,323,74,single-stim,17,122,516182,0-0,,,static/img/fea.gre.incon.01.jpg,emo_fear,fear.gre,incon
5555555,119,74,single-stim,18,123,517514,0-0,,,static/img/fea.red.congr.08.jpg,emo_fear,fear.red,con
5555555,38,74,single-stim,19,124,518660,0-0,,,static/img/hap.gre.congr.12.jpg,emo_fear,hap.gre,con
5555555,32,74,single-stim,20,125,519799,0-0,,,static/img/fea.gre.incon.09.jpg,emo_fear,fear.gre,incon
5555555,159,74,single-stim,21,126,521057,0-0,,,static/img/hap.red.incon.01.jpg,emo_fear,hap.red,incon
5555555,231,74,single-stim,22,127,522388,0-0,,,static/img/fea.red.congr.03.jpg,emo_fear,fear.red,con
5555555,187,74,single-stim,23,128,523697,0-0,,,static/img/fea.red.congr.05.jpg,emo_fear,fear.red,con
5555555,162,74,single-stim,24,129,525057,0-0,,,static/img/fea.gre.incon.04.jpg,emo_fear,fear.gre,incon
5555555,609,74,single-stim,25,130,526777,0-0,,,static/img/hap.gre.congr.05.jpg,emo_fear,hap.gre,con
5555555,8,74,single-stim,26,131,527916,0-0,,,static/img/fea.red.congr.06.jpg,emo_fear,fear.red,con
5555555,305,74,single-stim,27,132,529282,0-0,,,static/img/fea.gre.incon.05.jpg,emo_fear,fear.gre,incon
5555555,320,74,single-stim,28,133,530729,0-0,,,static/img/hap.red.incon.07.jpg,emo_fear,hap.red,incon
5555555,137,74,single-stim,29,134,531989,0-0,,,static/img/fea.red.congr.11.jpg,emo_fear,fear.red,con
5555555,16,74,single-stim,30,135,533093,0-0,,,static/img/hap.red.incon.10.jpg,emo_fear,hap.red,incon
5555555,187,74,single-stim,31,136,534383,0-0,,,static/img/hap.gre.congr.11.jpg,emo_fear,hap.gre,con
5555555,197,74,single-stim,32,137,535691,0-0,,,static/img/fea.gre.incon.12.jpg,emo_fear,fear.gre,incon
5555555,112,74,single-stim,33,138,537009,0-0,,,static/img/fea.red.congr.04.jpg,emo_fear,fear.red,con
5555555,51,74,single-stim,34,139,538175,0-0,,,static/img/fea.gre.incon.11.jpg,emo_fear,fear.gre,incon
5555555,83,74,single-stim,35,140,539539,0-0,,,static/img/fea.gre.incon.07.jpg,emo_fear,fear.gre,incon
5555555,312,74,single-stim,36,141,540867,0-0,,,static/img/fea.red.congr.09.jpg,emo_fear,fear.red,con
5555555,288,74,single-stim,37,142,542210,0-0,,,static/img/fea.gre.incon.03.jpg,emo_fear,fear.gre,incon
5555555,23,74,single-stim,38,143,543340,0-0,,,static/img/hap.gre.congr.06.jpg,emo_fear,hap.gre,con
5555555,122,74,single-stim,39,144,544587,0-0,,,static/img/hap.gre.congr.14.jpg,emo_fear,hap.gre,con
5555555,46,74,single-stim,40,145,545710,0-0,,,static/img/hap.red.incon.12.jpg,emo_fear,hap.red,incon
5555555,64,74,single-stim,41,146,546892,0-0,,,static/img/hap.red.incon.04.jpg,emo_fear,hap.red,incon
5555555,24,74,single-stim,42,147,548029,0-0,,,static/img/hap.gre.congr.01.jpg,emo_fear,hap.gre,con
5555555,21,74,single-stim,43,148,549163,0-0,,,static/img/hap.gre.congr.08.jpg,emo_fear,hap.gre,con
5555555,9,74,single-stim,44,149,550285,0-0,,,static/img/fea.red.congr.13.jpg,emo_fear,fear.red,con
5555555,26,74,single-stim,45,150,551427,0-0,,,static/img/fea.gre.incon.14.jpg,emo_fear,fear.gre,incon
5555555,192,74,single-stim,46,151,552732,0-0,,,static/img/hap.gre.congr.09.jpg,emo_fear,hap.gre,con
5555555,18,74,single-stim,47,152,553854,0-0,,,static/img/hap.red.incon.09.jpg,emo_fear,hap.red,incon
5555555,9,74,single-stim,48,153,554984,0-0,,,static/img/fea.red.congr.10.jpg,emo_fear,fear.red,con
5555555,18,74,single-stim,49,154,556134,0-0,,,static/img/hap.red.incon.06.jpg,emo_fear,hap.red,incon
5555555,184,74,single-stim,50,155,557436,0-0,,,static/img/hap.gre.congr.07.jpg,emo_fear,hap.gre,con
5555555,31,74,single-stim,51,156,558623,0-0,,,static/img/fea.red.congr.02.jpg,emo_fear,fear.red,con
5555555,190,74,single-stim,52,157,559924,0-0,,,static/img/fea.gre.incon.06.jpg,emo_fear,fear.gre,incon
5555555,11,74,single-stim,53,158,561048,0-0,,,static/img/fea.red.congr.07.jpg,emo_fear,fear.red,con
5555555,209,74,single-stim,54,159,562363,0-0,,,static/img/hap.gre.congr.10.jpg,emo_fear,hap.gre,con
5555555,219,74,single-stim,55,160,563704,0-0,,,static/img/hap.red.incon.11.jpg,emo_fear,hap.red,incon
5555555,8,74,text,0,161,564825,0-0,,,,,,
5555555,170,74,text,0,162,566122,0-0,,,,,,
5555555,148,74,text,0,163,567384,0-0,,,,,,
5555555,164,74,categorize,0,164,568648,0-0,,false,static/img/hap.red.incon.03.jpg,col_fear_prac,,incon
5555555,90,74,categorize,1,165,570268,0-0,,false,static/img/hap.red.incon.04.jpg,col_fear_prac,,incon
5555555,111,74,categorize,2,166,571894,0-0,,true,static/img/hap.gre.congr.10.jpg,col_fear_prac,,con
5555555,16,74,categorize,3,167,573406,0-0,,true,static/img/fea.gre.incon.02.jpg,col_fear_prac,,incon
5555555,52,74,categorize,4,168,574966,0-0,,false,static/img/fea.red.congr.05.jpg,col_fear_prac,,con
5555555,169,74,categorize,5,169,576690,0-0,,false,static/img/fea.red.congr.06.jpg,col_fear_prac,,con
5555555,105,74,categorize,6,170,578355,0-0,,true,static/img/hap.gre.congr.01.jpg,col_fear_prac,,con
5555555,113,74,categorize,7,171,580054,0-0,,false,static/img/fea.red.congr.02.jpg,col_fear_prac,,con
5555555,139,74,categorize,8,172,581795,0-0,,true,static/img/fea.gre.incon.04.jpg,col_fear_prac,,incon
5555555,644,74,categorize,9,173,583983,0-0,,true,static/img/hap.gre.congr.08.jpg,col_fear_prac,,con
5555555,472,74,categorize,10,174,586037,0-0,,true,static/img/hap.gre.congr.03.jpg,col_fear_prac,,con
5555555,126,74,categorize,11,175,587774,0-0,,false,static/img/fea.red.congr.12.jpg,col_fear_prac,,con
5555555,152,74,categorize,12,176,589462,0-0,,true,static/img/fea.gre.incon.11.jpg,col_fear_prac,,incon
5555555,18,74,categorize,13,177,590998,0-0,,false,static/img/hap.red.incon.03.jpg,col_fear_prac,,incon
5555555,45,74,categorize,14,178,592575,0-0,,true,static/img/fea.gre.incon.11.jpg,col_fear_prac,,incon
5555555,57,74,categorize,15,179,594173,0-0,,false,static/img/fea.red.congr.12.jpg,col_fear_prac,,con
5555555,16,74,categorize,16,180,595728,0-0,,true,static/img/hap.gre.congr.05.jpg,col_fear_prac,,con
5555555,51,74,categorize,17,181,597324,0-0,,false,static/img/fea.red.congr.04.jpg,col_fear_prac,,con
5555555,38,74,categorize,18,182,598910,0-0,,false,static/img/hap.red.incon.12.jpg,col_fear_prac,,incon
5555555,53,74,categorize,19,183,600502,0-0,,false,static/img/fea.red.congr.11.jpg,col_fear_prac,,con
5555555,22,74,text,0,184,602070,0-0,,,,,,
5555555,16,74,single-stim,0,185,603198,0-0,,,static/img/hap.red.incon.02.jpg,col_fear,hap.red,incon
5555555,71,74,single-stim,1,186,604389,0-0,,,static/img/fea.gre.incon.13.jpg,col_fear,fear.gre,incon
5555555,114,74,single-stim,2,187,605623,0-0,,,static/img/fea.red.congr.12.jpg,col_fear,fear.red,con
5555555,82,74,single-stim,3,188,606837,0-0,,,static/img/hap.gre.congr.02.jpg,col_fear,hap.gre,con
5555555,53,74,single-stim,4,189,608018,0-0,,,static/img/hap.red.incon.13.jpg,col_fear,hap.red,incon
5555555,50,74,single-stim,5,190,609164,0-0,,,static/img/fea.gre.incon.08.jpg,col_fear,fear.gre,incon
5555555,70,74,single-stim,6,191,610349,0-0,,,static/img/hap.red.incon.03.jpg,col_fear,hap.red,incon
5555555,34,74,single-stim,7,192,611493,0-0,,,static/img/fea.red.congr.14.jpg,col_fear,fear.red,con
5555555,595,74,single-stim,8,193,613204,0-0,,,static/img/hap.red.incon.08.jpg,col_fear,hap.red,incon
5555555,221,74,single-stim,9,194,614543,0-0,,,static/img/fea.gre.incon.02.jpg,col_fear,fear.gre,incon
5555555,75,74,single-stim,10,195,615731,0-0,,,static/img/fea.red.congr.01.jpg,col_fear,fear.red,con
5555555,179,74,single-stim,11,196,617044,0-0,,,static/img/hap.gre.congr.13.jpg,col_fear,hap.gre,con
5555555,104,74,single-stim,12,197,618261,0-0,,,static/img/fea.gre.incon.10.jpg,col_fear,fear.gre,incon
5555555,36,74,single-stim,13,198,619418,0-0,,,static/img/hap.gre.congr.04.jpg,col_fear,hap.gre,con
5555555,93,74,single-stim,14,199,620643,0-0,,,static/img/hap.red.incon.14.jpg,col_fear,hap.red,incon
5555555,26,74,single-stim,15,200,621793,0-0,,,static/img/hap.red.incon.05.jpg,col_fear,hap.red,incon
5555555,188,74,single-stim,16,201,623095,0-0,,,static/img/hap.gre.congr.03.jpg,col_fear,hap.gre,con
5555555,181,74,single-stim,17,202,624382,0-0,,,static/img/fea.gre.incon.01.jpg,col_fear,fear.gre,incon
5555555,19,74,single-stim,18,203,625524,0-0,,,static/img/fea.red.congr.08.jpg,col_fear,fear.red,con
5555555,2364,74,single-stim,19,204,628984,0-0,,,static/img/hap.gre.congr.12.jpg,col_fear,hap.gre,con
5555555,45,74,single-stim,20,205,630132,0-0,,,static/img/fea.gre.incon.09.jpg,col_fear,fear.gre,incon
5555555,949,74,single-stim,21,206,632204,0-0,,,static/img/hap.red.incon.01.jpg,col_fear,hap.red,incon
5555555,56,74,single-stim,22,207,633399,0-0,,,static/img/fea.red.congr.03.jpg,col_fear,fear.red,con
5555555,47,74,single-stim,23,208,634595,0-0,,,static/img/fea.red.congr.05.jpg,col_fear,fear.red,con
5555555,320,74,single-stim,24,209,635927,0-0,,,static/img/fea.gre.incon.04.jpg,col_fear,fear.gre,incon
5555555,254,74,single-stim,25,210,637278,0-0,,,static/img/hap.gre.congr.05.jpg,col_fear,hap.gre,con
5555555,110,74,single-stim,26,211,638486,0-0,,,static/img/fea.red.congr.06.jpg,col_fear,fear.red,con
5555555,88,74,single-stim,27,212,639664,0-0,,,static/img/fea.gre.incon.05.jpg,col_fear,fear.gre,incon
5555555,116,74,single-stim,28,213,640879,0-0,,,static/img/hap.red.incon.07.jpg,col_fear,hap.red,incon
5555555,758,74,single-stim,29,214,642722,0-0,,,static/img/fea.red.congr.11.jpg,col_fear,fear.red,con
5555555,41,74,single-stim,30,215,643870,0-0,,,static/img/hap.red.incon.10.jpg,col_fear,hap.red,incon
5555555,95,74,single-stim,31,216,645080,0-0,,,static/img/hap.gre.congr.11.jpg,col_fear,hap.gre,con
5555555,32,74,single-stim,32,217,646196,0-0,,,static/img/fea.gre.incon.12.jpg,col_fear,fear.gre,incon
5555555,39,74,single-stim,33,218,647347,0-0,,,static/img/fea.red.congr.04.jpg,col_fear,fear.red,con
5555555,80,74,single-stim,34,219,648538,0-0,,,static/img/fea.gre.incon.11.jpg,col_fear,fear.gre,incon
5555555,231,74,single-stim,35,220,649879,0-0,,,static/img/fea.gre.incon.07.jpg,col_fear,fear.gre,incon
5555555,52,74,single-stim,36,221,651033,0-0,,,static/img/fea.red.congr.09.jpg,col_fear,fear.red,con
5555555,76,74,single-stim,37,222,652220,0-0,,,static/img/fea.gre.incon.03.jpg,col_fear,fear.gre,incon
5555555,39,74,single-stim,38,223,653380,0-0,,,static/img/hap.gre.congr.06.jpg,col_fear,hap.gre,con
5555555,48,74,single-stim,39,224,654554,0-0,,,static/img/hap.gre.congr.14.jpg,col_fear,hap.gre,con
5555555,98,74,single-stim,40,225,655777,0-0,,,static/img/hap.red.incon.12.jpg,col_fear,hap.red,incon
5555555,74,74,single-stim,41,226,656968,0-0,,,static/img/hap.red.incon.04.jpg,col_fear,hap.red,incon
5555555,51,74,single-stim,42,227,658113,0-0,,,static/img/hap.gre.congr.01.jpg,col_fear,hap.gre,con
5555555,138,74,single-stim,43,228,659369,0-0,,,static/img/hap.gre.congr.08.jpg,col_fear,hap.gre,con
5555555,80,74,single-stim,44,229,660567,0-0,,,static/img/fea.red.congr.13.jpg,col_fear,fear.red,con
5555555,144,74,single-stim,45,230,661837,0-0,,,static/img/fea.gre.incon.14.jpg,col_fear,fear.gre,incon
5555555,336,74,single-stim,46,231,663290,0-0,,,static/img/hap.gre.congr.09.jpg,col_fear,hap.gre,con
5555555,129,74,single-stim,47,232,664536,0-0,,,static/img/hap.red.incon.09.jpg,col_fear,hap.red,incon
5555555,17,74,single-stim,48,233,665673,0-0,,,static/img/fea.red.congr.10.jpg,col_fear,fear.red,con
5555555,214,74,single-stim,49,234,667000,0-0,,,static/img/hap.red.incon.06.jpg,col_fear,hap.red,incon
5555555,204,74,single-stim,50,235,668343,0-0,,,static/img/hap.gre.congr.07.jpg,col_fear,hap.gre,con
5555555,141,74,single-stim,51,236,669601,0-0,,,static/img/fea.red.congr.02.jpg,col_fear,fear.red,con
5555555,249,74,single-stim,52,237,670959,0-0,,,static/img/fea.gre.incon.06.jpg,col_fear,fear.gre,incon
5555555,38,74,single-stim,53,238,672093,0-0,,,static/img/fea.red.congr.07.jpg,col_fear,fear.red,con
5555555,204,74,single-stim,54,239,673416,0-0,,,static/img/hap.gre.congr.10.jpg,col_fear,hap.gre,con
5555555,192,74,single-stim,55,240,674749,0-0,,,static/img/hap.red.incon.11.jpg,col_fear,hap.red,incon
5555555,213,74,text,0,241,676077,0-0,,,,,,
5555555,142,74,text,0,242,677322,0-0,,,,,,
5555555,48,74,text,0,243,678510,0-0,,,,,,
5555555,86,74,categorize,0,244,679702,0-0,,false,static/img/hap.red.incon.14.jpg,col_sad_prac,,incon
5555555,31,74,categorize,1,245,681276,0-0,,true,static/img/hap.gre.congr.02.jpg,col_sad_prac,,con
5555555,194,74,categorize,2,246,683009,0-0,,true,static/img/hap.gre.congr.14.jpg,col_sad_prac,,con
5555555,116,74,categorize,3,247,684639,0-0,,true,static/img/sad.gre.incon.02.jpg,col_sad_prac,,incon
5555555,191,74,categorize,4,248,686350,0-0,,false,static/img/sad.red.congr.08.jpg,col_sad_prac,,con
5555555,74,74,categorize,5,249,687975,0-0,,true,static/img/hap.gre.congr.10.jpg,col_sad_prac,,con
5555555,35,74,categorize,6,250,689550,0-0,,false,static/img/sad.red.congr.07.jpg,col_sad_prac,,con
5555555,138,74,categorize,7,251,691210,0-0,,false,static/img/hap.red.incon.04.jpg,col_sad_prac,,incon
5555555,164,74,categorize,8,252,692917,0-0,,true,static/img/sad.gre.incon.10.jpg,col_sad_prac,,incon
5555555,48,74,categorize,9,253,694511,0-0,,false,static/img/hap.red.incon.02.jpg,col_sad_prac,,incon
5555555,189,74,categorize,10,254,696219,0-0,,true,static/img/sad.gre.incon.12.jpg,col_sad_prac,,incon
5555555,16,74,categorize,11,255,697764,0-0,,false,static/img/hap.red.incon.13.jpg,col_sad_prac,,incon
5555555,214,74,categorize,12,256,699515,0-0,,true,static/img/hap.gre.congr.14.jpg,col_sad_prac,,con
5555555,183,74,categorize,13,257,701228,0-0,,false,static/img/hap.red.incon.08.jpg,col_sad_prac,,incon
5555555,54,74,categorize,14,258,702766,0-0,,true,static/img/hap.gre.congr.07.jpg,col_sad_prac,,con
5555555,21,74,categorize,15,259,704307,0-0,,true,static/img/hap.gre.congr.11.jpg,col_sad_prac,,con
5555555,220,74,categorize,16,260,706048,0-0,,true,static/img/hap.gre.congr.11.jpg,col_sad_prac,,con
5555555,45,74,categorize,17,261,707615,0-0,,true,static/img/hap.gre.congr.05.jpg,col_sad_prac,,con
5555555,172,74,categorize,18,262,709327,0-0,,true,static/img/hap.gre.congr.05.jpg,col_sad_prac,,con
5555555,210,74,categorize,19,263,711069,0-0,,true,static/img/sad.gre.incon.01.jpg,col_sad_prac,,incon
5555555,58,74,text,0,264,712643,0-0,,,,,,
5555555,598,74,single-stim,0,265,714345,0-0,,,static/img/hap.red.incon.12.jpg,col_sad,hap.red,incon
5555555,85,74,single-stim,1,266,715538,0-0,,,static/img/sad.gre.incon.10.jpg,col_sad,sad.gre,incon
5555555,19,74,single-stim,2,267,716675,0-0,,,static/img/hap.red.incon.06.jpg,col_sad,hap.red,incon
5555555,48,74,single-stim,3,268,717850,0-0,,,static/img/sad.gre.incon.13.jpg,col_sad,sad.gre,incon
5555555,19,74,single-stim,4,269,718983,0-0,,,static/img/hap.red.incon.08.jpg,col_sad,hap.red,incon
5555555,118,74,single-stim,5,270,720170,0-0,,,static/img/hap.red.incon.01.jpg,col_sad,hap.red,incon
5555555,28,74,single-stim,6,271,721313,0-0,,,static/img/hap.gre.congr.07.jpg,col_sad,hap.gre,con
5555555,54,74,single-stim,7,272,722477,0-0,,,static/img/hap.red.incon.07.jpg,col_sad,hap.red,incon
5555555,49,74,single-stim,8,273,723633,0-0,,,static/img/sad.gre.incon.01.jpg,col_sad,sad.gre,incon
5555555,62,74,single-stim,9,274,724803,0-0,,,static/img/hap.gre.congr.12.jpg,col_sad,hap.gre,con
5555555,78,74,single-stim,10,275,725980,0-0,,,static/img/hap.gre.congr.10.jpg,col_sad,hap.gre,con
5555555,8,74,single-stim,11,276,727093,0-0,,,static/img/sad.red.congr.02.jpg,col_sad,sad.red,con
5555555,398,74,single-stim,12,277,728525,0-0,,,static/img/sad.gre.incon.02.jpg,col_sad,sad.gre,incon
5555555,70,74,single-stim,13,278,729728,0-0,,,static/img/hap.gre.congr.01.jpg,col_sad,hap.gre,con
5555555,172,74,single-stim,14,279,731140,0-0,,,static/img/sad.red.congr.09.jpg,col_sad,sad.red,con
5555555,85496,74,single-stim,15,280,817768,0-0,,,static/img/sad.red.congr.05.jpg,col_sad,sad.red,con
5555555,168,74,single-stim,16,281,819208,0-0,,,static/img/hap.gre.congr.14.jpg,col_sad,hap.gre,con
5555555,35,74,single-stim,17,282,820395,0-0,,,static/img/sad.red.congr.11.jpg,col_sad,sad.red,con
5555555,53,74,single-stim,18,283,821534,0-0,,,static/img/hap.gre.congr.05.jpg,col_sad,hap.gre,con
5555555,93,74,single-stim,19,284,822918,0-0,,,static/img/sad.gre.incon.11.jpg,col_sad,sad.gre,incon
5555555,392,74,single-stim,20,285,824327,0-0,,,static/img/sad.gre.incon.09.jpg,col_sad,sad.gre,incon
5555555,61,74,single-stim,21,286,825480,0-0,,,static/img/hap.red.incon.11.jpg,col_sad,hap.red,incon
5555555,143,74,single-stim,22,287,826890,0-0,,,static/img/sad.gre.incon.03.jpg,col_sad,sad.gre,incon
5555555,1,74,single-stim,23,288,828031,0-0,,,static/img/hap.gre.congr.06.jpg,col_sad,hap.gre,con
5555555,17207,74,single-stim,24,289,846347,0-0,,,static/img/sad.gre.incon.12.jpg,col_sad,sad.gre,incon
5555555,71,74,single-stim,25,290,847535,0-0,,,static/img/sad.gre.incon.04.jpg,col_sad,sad.gre,incon
5555555,71,74,single-stim,26,291,848959,0-0,,,static/img/sad.red.congr.12.jpg,col_sad,sad.red,con
5555555,77,74,single-stim,27,292,850133,0-0,,,static/img/sad.red.congr.14.jpg,col_sad,sad.red,con
5555555,382,74,single-stim,28,293,851573,0-0,,,static/img/sad.red.congr.10.jpg,col_sad,sad.red,con
5555555,95,74,single-stim,29,294,852963,0-0,,,static/img/hap.gre.congr.13.jpg,col_sad,hap.gre,con
5555555,88,74,single-stim,30,295,854132,0-0,,,static/img/hap.red.incon.03.jpg,col_sad,hap.red,incon
5555555,92,74,single-stim,31,296,855553,0-0,,,static/img/hap.red.incon.14.jpg,col_sad,hap.red,incon
5555555,88,74,single-stim,32,297,856956,0-0,,,static/img/sad.red.congr.04.jpg,col_sad,sad.red,con
5555555,40,74,single-stim,33,298,858106,0-0,,,static/img/hap.red.incon.05.jpg,col_sad,hap.red,incon
5555555,23,74,single-stim,34,299,859234,0-0,,,static/img/hap.gre.congr.09.jpg,col_sad,hap.gre,con
5555555,168,74,single-stim,35,300,860640,0-0,,,static/img/hap.gre.congr.04.jpg,col_sad,hap.gre,con
5555555,119,74,single-stim,36,301,862090,0-0,,,static/img/hap.red.incon.02.jpg,col_sad,hap.red,incon
5555555,69,74,single-stim,37,302,863497,0-0,,,static/img/sad.red.congr.03.jpg,col_sad,sad.red,con
5555555,133,74,single-stim,38,303,864904,0-0,,,static/img/sad.red.congr.07.jpg,col_sad,sad.red,con
5555555,145,74,single-stim,39,304,866337,0-0,,,static/img/sad.gre.incon.06.jpg,col_sad,sad.gre,incon
5555555,147,74,single-stim,40,305,867776,0-0,,,static/img/hap.red.incon.04.jpg,col_sad,hap.red,incon
5555555,427,74,single-stim,41,306,869235,0-0,,,static/img/hap.gre.congr.11.jpg,col_sad,hap.gre,con
5555555,407,74,single-stim,42,307,870674,0-0,,,static/img/sad.red.congr.01.jpg,col_sad,sad.red,con
5555555,85,74,single-stim,43,308,872095,0-0,,,static/img/sad.gre.incon.07.jpg,col_sad,sad.gre,incon
5555555,13,74,single-stim,44,309,873235,0-0,,,static/img/hap.red.incon.10.jpg,col_sad,hap.red,incon
5555555,393,74,single-stim,45,310,874654,0-0,,,static/img/hap.gre.congr.02.jpg,col_sad,hap.gre,con
5555555,413,74,single-stim,46,311,876078,0-0,,,static/img/sad.red.congr.08.jpg,col_sad,sad.red,con
5555555,59,74,single-stim,47,312,877555,0-0,,,static/img/sad.gre.incon.08.jpg,col_sad,sad.gre,incon
5555555,20,74,single-stim,48,313,878661,0-0,,,static/img/sad.red.congr.13.jpg,col_sad,sad.red,con
5555555,16,74,single-stim,49,314,879794,0-0,,,static/img/sad.gre.incon.14.jpg,col_sad,sad.gre,incon
5555555,45,74,single-stim,50,315,880957,0-0,,,static/img/hap.gre.congr.03.jpg,col_sad,hap.gre,con
5555555,32,74,single-stim,51,316,882114,0-0,,,static/img/sad.red.congr.06.jpg,col_sad,sad.red,con
5555555,445,74,single-stim,52,317,883572,0-0,,,static/img/hap.gre.congr.08.jpg,col_sad,hap.gre,con
5555555,133,74,single-stim,53,318,885014,0-0,,,static/img/hap.red.incon.13.jpg,col_sad,hap.red,incon
5555555,33,74,single-stim,54,319,886162,0-0,,,static/img/sad.gre.incon.05.jpg,col_sad,sad.gre,incon
5555555,415,74,single-stim,55,320,887604,0-0,,,static/img/hap.red.incon.09.jpg,col_sad,hap.red,incon
5555555,198,74,text,0,321,888904,0-0,,,,,,
5555555,98,74,text,0,322,890108,0-0,,,,,,
5555555,126,74,text,0,323,891335,0-0,,,,,,
5555555,865,74,text,0,324,893315,0-0,,,,,,
5555555,46,74,categorize,0,325,894611,0-0,,false,<audio class='audio' autoplay><source src='/static/mp3/sad.neg.congr.06.mp3'> type='audio/wav'></audio>,aud_val_prac,,con
5555555,125,74,categorize,1,326,896193,0-0,,false,<audio class='audio' autoplay><source src='/static/mp3/sad.neg.congr.09.mp3'> type='audio/wav'></audio>,aud_val_prac,,con
5555555,35860,74,categorize,2,327,933578,0-0,,false,<audio class='audio' autoplay><source src='/static/mp3/sad.neg.congr.09.mp3'> type='audio/wav'></audio>,aud_val_prac,,con
5555555,143,74,categorize,3,328,935450,0-0,,false,<audio class='audio' autoplay><source src='/static/mp3/sad.neg.congr.02.mp3'> type='audio/wav'></audio>,aud_val_prac,,con
5555555,160,74,categorize,4,329,937379,0-0,,true,<audio class='audio' autoplay><source src='/static/mp3/hap.pos.congr.08.mp3'> type='audio/wav'></audio>,aud_val_prac,,con
5555555,26,74,categorize,5,330,938918,0-0,,false,<audio class='audio' autoplay><source src='/static/mp3/hap.neg.incon.06.mp3'> type='audio/wav'></audio>,aud_val_prac,,incon
5555555,50,74,categorize,6,331,940491,0-0,,false,<audio class='audio' autoplay><source src='/static/mp3/sad.neg.congr.06.mp3'> type='audio/wav'></audio>,aud_val_prac,,con
5555555,156,74,categorize,7,332,942426,0-0,,true,<audio class='audio' autoplay><source src='/static/mp3/hap.pos.congr.03.mp3'> type='audio/wav'></audio>,aud_val_prac,,con
5555555,440,74,categorize,8,333,944313,0-0,,false,<audio class='audio' autoplay><source src='/static/mp3/hap.neg.incon.07.mp3'> type='audio/wav'></audio>,aud_val_prac,,incon
5555555,73,74,categorize,9,334,945918,0-0,,false,<audio class='audio' autoplay><source src='/static/mp3/sad.neg.congr.05.mp3'> type='audio/wav'></audio>,aud_val_prac,,con
5555555,65,74,categorize,10,335,947492,0-0,,false,<audio class='audio' autoplay><source src='/static/mp3/sad.neg.congr.07.mp3'> type='audio/wav'></audio>,aud_val_prac,,con
5555555,60,74,categorize,11,336,949079,0-0,,false,<audio class='audio' autoplay><source src='/static/mp3/sad.neg.congr.07.mp3'> type='audio/wav'></audio>,aud_val_prac,,con
5555555,113,74,categorize,12,337,950954,0-0,,false,<audio class='audio' autoplay><source src='/static/mp3/sad.neg.congr.01.mp3'> type='audio/wav'></audio>,aud_val_prac,,con
5555555,123,74,categorize,13,338,952824,0-0,,false,<audio class='audio' autoplay><source src='/static/mp3/sad.neg.congr.11.mp3'> type='audio/wav'></audio>,aud_val_prac,,con
5555555,159,74,categorize,14,339,954691,0-0,,false,<audio class='audio' autoplay><source src='/static/mp3/hap.neg.incon.02.mp3'> type='audio/wav'></audio>,aud_val_prac,,incon
5555555,7,74,categorize,15,340,956204,0-0,,true,<audio class='audio' autoplay><source src='/static/mp3/hap.pos.congr.03.mp3'> type='audio/wav'></audio>,aud_val_prac,,con
5555555,164,74,categorize,16,341,958115,0-0,,false,<audio class='audio' autoplay><source src='/static/mp3/hap.neg.incon.05.mp3'> type='audio/wav'></audio>,aud_val_prac,,incon
5555555,446,74,categorize,17,342,959994,0-0,,false,<audio class='audio' autoplay><source src='/static/mp3/hap.neg.incon.08.mp3'> type='audio/wav'></audio>,aud_val_prac,,incon
5555555,4,74,categorize,18,343,961521,0-0,,true,<audio class='audio' autoplay><source src='/static/mp3/hap.pos.congr.06.mp3'> type='audio/wav'></audio>,aud_val_prac,,con
5555555,21,74,categorize,19,344,963059,0-0,,false,<audio class='audio' autoplay><source src='/static/mp3/hap.neg.incon.03.mp3'> type='audio/wav'></audio>,aud_val_prac,,incon
5555555,204,74,text,0,345,964776,0-0,,,,,,
5555555,158.66666666659057,74,single-audio,0,346,966125,0-0,,,/static/mp3/hap.pos.congr.03.mp3,aud_val,emotion.congr,con
5555555,-89.33333333334303,74,single-audio,1,347,967220,0-0,,,/static/mp3/sad.pos.incon.09.mp3,aud_val,emotion.incon,incon
5555555,-60.00000000005912,74,single-audio,2,348,968376,0-0,,,/static/mp3/hap.pos.congr.08.mp3,aud_val,emotion.congr,con
5555555,1209.3333333333476,74,single-audio,3,349,970795,0-0,,,/static/mp3/sad.pos.incon.10.mp3,aud_val,emotion.incon,incon
5555555,190.66666666662968,74,single-audio,4,350,972176,0-0,,,/static/mp3/sad.neg.congr.07.mp3,aud_val,emotion.congr,con
5555555,-70.66666666673882,74,single-audio,5,351,973309,0-0,,,/static/mp3/hap.neg.incon.05.mp3,aud_val,emotion.incon,incon
5555555,-70.66666666662513,74,single-audio,6,352,974444,0-0,,,/static/mp3/sad.neg.congr.09.mp3,aud_val,emotion.congr,con
5555555,339.99999999991815,74,single-audio,7,353,975969,0-0,,,/static/mp3/sad.neg.congr.01.mp3,aud_val,emotion.congr,con
5555555,-60.00000000005912,74,single-audio,8,354,977105,0-0,,,/static/mp3/hap.pos.congr.05.mp3,aud_val,emotion.congr,con
5555555,70.66666666662513,74,single-audio,9,355,978366,0-0,,,/static/mp3/hap.neg.incon.01.mp3,aud_val,emotion.incon,incon
5555555,49.33333333326573,74,single-audio,10,356,979617,0-0,,,/static/mp3/hap.neg.incon.08.mp3,aud_val,emotion.incon,incon
5555555,81.33333333330484,74,single-audio,11,357,980883,0-0,,,/static/mp3/hap.pos.congr.07.mp3,aud_val,emotion.congr,con
5555555,89.33333333334303,74,single-audio,12,358,982155,0-0,,,/static/mp3/hap.neg.incon.09.mp3,aud_val,emotion.incon,incon
5555555,89.33333333334303,74,single-audio,13,359,983424,0-0,,,/static/mp3/sad.pos.incon.11.mp3,aud_val,emotion.incon,incon
5555555,9.333333333415794,74,single-audio,14,360,984654,0-0,,,/static/mp3/hap.neg.incon.02.mp3,aud_val,emotion.incon,incon
5555555,30.666666666547826,74,single-audio,15,361,985892,0-0,,,/static/mp3/sad.neg.congr.06.mp3,aud_val,emotion.congr,con
5555555,81.33333333330484,74,single-audio,16,362,987159,0-0,,,/static/mp3/hap.neg.incon.04.mp3,aud_val,emotion.incon,incon
5555555,67.99999999998363,74,single-audio,17,363,988430,0-0,,,/static/mp3/hap.pos.congr.04.mp3,aud_val,emotion.congr,con
5555555,78.66666666666333,74,single-audio,18,364,989727,0-0,,,/static/mp3/hap.pos.congr.10.mp3,aud_val,emotion.congr,con
5555555,89.33333333322935,74,single-audio,19,365,991006,0-0,,,/static/mp3/hap.neg.incon.07.mp3,aud_val,emotion.incon,incon
5555555,59.99999999994543,74,single-audio,20,366,992260,0-0,,,/static/mp3/sad.pos.incon.03.mp3,aud_val,emotion.incon,incon
5555555,19.99999999998181,74,single-audio,21,367,993473,0-0,,,/static/mp3/hap.neg.incon.10.mp3,aud_val,emotion.incon,incon
5555555,49.333333333379414,74,single-audio,22,368,994715,0-0,,,/static/mp3/sad.pos.incon.02.mp3,aud_val,emotion.incon,incon
5555555,60.00000000005912,74,single-audio,23,369,995974,0-0,,,/static/mp3/sad.pos.incon.08.mp3,aud_val,emotion.incon,incon
5555555,81.33333333330484,74,single-audio,24,370,997257,0-0,,,/static/mp3/sad.pos.incon.06.mp3,aud_val,emotion.incon,incon
5555555,70.66666666673882,74,single-audio,25,371,998520,0-0,,,/static/mp3/sad.neg.congr.03.mp3,aud_val,emotion.congr,con
5555555,110.66666666670244,74,single-audio,26,372,999864,0-0,,,/static/mp3/hap.pos.congr.02.mp3,aud_val,emotion.congr,con
5555555,91.99999999998454,74,single-audio,27,373,1001160,0-0,,,/static/mp3/hap.pos.congr.11.mp3,aud_val,emotion.congr,con
5555555,89.33333333334303,74,single-audio,28,374,1002452,0-0,,,/static/mp3/hap.pos.congr.01.mp3,aud_val,emotion.congr,con
5555555,59.99999999994543,74,single-audio,29,375,1003715,0-0,,,/static/mp3/sad.neg.congr.10.mp3,aud_val,emotion.congr,con
5555555,81.33333333330484,74,single-audio,30,376,1005001,0-0,,,/static/mp3/sad.pos.incon.01.mp3,aud_val,emotion.incon,incon
5555555,41.333333333341216,74,single-audio,31,377,1006291,0-0,,,/static/mp3/sad.neg.congr.08.mp3,aud_val,emotion.congr,con
5555555,-89.33333333345672,74,single-audio,32,378,1007432,0-0,,,/static/mp3/sad.neg.congr.02.mp3,aud_val,emotion.congr,con
5555555,49.333333333379414,74,single-audio,33,379,1008670,0-0,,,/static/mp3/sad.neg.congr.11.mp3,aud_val,emotion.congr,con
5555555,89.33333333334303,70,single-audio,34,380,1009970,0-0,,,/static/mp3/hap.neg.incon.06.mp3,aud_val,emotion.incon,incon
5555555,-41.333333333341216,70,single-audio,35,381,1011139,0-0,,,/static/mp3/hap.neg.incon.03.mp3,aud_val,emotion.incon,incon
5555555,9.333333333302107,70,single-audio,36,382,1012347,0-0,,,/static/mp3/sad.neg.congr.05.mp3,aud_val,emotion.congr,con
5555555,59.99999999994543,70,single-audio,37,383,1013595,0-0,,,/static/mp3/sad.pos.incon.04.mp3,aud_val,emotion.incon,incon
5555555,51.99999999990723,70,single-audio,38,384,1014844,0-0,,,/static/mp3/hap.neg.incon.11.mp3,aud_val,emotion.incon,incon
5555555,30.666666666661513,70,single-audio,39,385,1016082,0-0,,,/static/mp3/hap.pos.congr.09.mp3,aud_val,emotion.congr,con
5555555,-20.000000000095497,70,single-audio,40,386,1017278,0-0,,,/static/mp3/sad.neg.congr.04.mp3,aud_val,emotion.congr,con
5555555,19.99999999998181,70,single-audio,41,387,1018535,0-0,,,/static/mp3/sad.pos.incon.05.mp3,aud_val,emotion.incon,incon
5555555,41.333333333341216,70,single-audio,42,388,1019782,0-0,,,/static/mp3/hap.pos.congr.06.mp3,aud_val,emotion.congr,con
5555555,19.99999999998181,70,single-audio,43,389,1021017,0-0,,,/static/mp3/sad.pos.incon.07.mp3,aud_val,emotion.incon,incon
5555555,170,70,text,0,390,1022298,0-0,,,,,,
5555555,7,70,text,0,391,1023420,0-0,,,,,,
5555555,787,70,text,0,392,1025308,0-0,,,,,,
5555555,136,70,text,0,393,1026570,0-0,,,,,,
5555555,156,70,categorize,0,394,1028036,0-0,,false,<audio class='audio' autoplay><source src='/static/mp3/hap.neg.incon.01.mp3'> type='audio/wav'></audio>,aud_ton_prac,,incon
5555555,196,70,categorize,1,395,1029757,0-0,,false,<audio class='audio' autoplay><source src='/static/mp3/hap.neg.incon.02.mp3'> type='audio/wav'></audio>,aud_ton_prac,,incon
5555555,149,70,categorize,2,396,1031426,0-0,,false,<audio class='audio' autoplay><source src='/static/mp3/hap.neg.incon.07.mp3'> type='audio/wav'></audio>,aud_ton_prac,,incon
5555555,80,70,categorize,3,397,1033076,0-0,,true,<audio class='audio' autoplay><source src='/static/mp3/sad.neg.congr.07.mp3'> type='audio/wav'></audio>,aud_ton_prac,,con
5555555,139,70,categorize,4,398,1035008,0-0,,false,<audio class='audio' autoplay><source src='/static/mp3/hap.pos.congr.09.mp3'> type='audio/wav'></audio>,aud_ton_prac,,con
5555555,103,70,categorize,5,399,1036931,0-0,,false,<audio class='audio' autoplay><source src='/static/mp3/hap.pos.congr.04.mp3'> type='audio/wav'></audio>,aud_ton_prac,,con
5555555,123,70,categorize,6,400,1038600,0-0,,false,<audio class='audio' autoplay><source src='/static/mp3/hap.neg.incon.02.mp3'> type='audio/wav'></audio>,aud_ton_prac,,incon
5555555,169,70,categorize,7,401,1040311,0-0,,false,<audio class='audio' autoplay><source src='/static/mp3/hap.neg.incon.03.mp3'> type='audio/wav'></audio>,aud_ton_prac,,incon
5555555,175,70,categorize,8,402,1042210,0-0,,true,<audio class='audio' autoplay><source src='/static/mp3/sad.neg.congr.10.mp3'> type='audio/wav'></audio>,aud_ton_prac,,con
5555555,22,70,categorize,9,403,1043750,0-0,,true,<audio class='audio' autoplay><source src='/static/mp3/sad.neg.congr.06.mp3'> type='audio/wav'></audio>,aud_ton_prac,,con
5555555,134,70,categorize,10,404,1045416,0-0,,false,<audio class='audio' autoplay><source src='/static/mp3/hap.neg.incon.07.mp3'> type='audio/wav'></audio>,aud_ton_prac,,incon
5555555,124,70,categorize,11,405,1047073,0-0,,true,<audio class='audio' autoplay><source src='/static/mp3/sad.neg.congr.05.mp3'> type='audio/wav'></audio>,aud_ton_prac,,con
5555555,71,70,categorize,12,406,1048988,0-0,,false,<audio class='audio' autoplay><source src='/static/mp3/hap.pos.congr.07.mp3'> type='audio/wav'></audio>,aud_ton_prac,,con
5555555,53,70,categorize,13,407,1050582,0-0,,true,<audio class='audio' autoplay><source src='/static/mp3/sad.neg.congr.10.mp3'> type='audio/wav'></audio>,aud_ton_prac,,con
5555555,120,70,categorize,14,408,1052486,0-0,,true,<audio class='audio' autoplay><source src='/static/mp3/sad.pos.incon.06.mp3'> type='audio/wav'></audio>,aud_ton_prac,,incon
5555555,88,70,categorize,15,409,1054386,0-0,,true,<audio class='audio' autoplay><source src='/static/mp3/sad.pos.incon.04.mp3'> type='audio/wav'></audio>,aud_ton_prac,,incon
5555555,107,70,categorize,16,410,1056331,0-0,,true,<audio class='audio' autoplay><source src='/static/mp3/sad.pos.incon.09.mp3'> type='audio/wav'></audio>,aud_ton_prac,,incon
5555555,118,70,categorize,17,411,1057883,0-0,,false,<audio class='audio' autoplay><source src='/static/mp3/hap.neg.incon.05.mp3'> type='audio/wav'></audio>,aud_ton_prac,,incon
5555555,133,70,categorize,18,412,1059570,0-0,,true,<audio class='audio' autoplay><source src='/static/mp3/sad.pos.incon.04.mp3'> type='audio/wav'></audio>,aud_ton_prac,,incon
5555555,523,70,categorize,19,413,1061523,0-0,,false,<audio class='audio' autoplay><source src='/static/mp3/hap.neg.incon.09.mp3'> type='audio/wav'></audio>,aud_ton_prac,,incon
5555555,144,70,text,0,414,1063216,0-0,,,,,,
5555555,-89.33333333311566,70,single-audio,0,415,1064344,0-0,,,/static/mp3/hap.pos.congr.03.mp3,aud_ton,emotion.congr,con
5555555,89.33333333334303,70,single-audio,1,416,1065636,0-0,,,/static/mp3/sad.pos.incon.09.mp3,aud_ton,emotion.incon,incon
5555555,-89.33333333334303,70,single-audio,2,417,1066764,0-0,,,/static/mp3/hap.pos.congr.08.mp3,aud_ton,emotion.congr,con
5555555,-59.99999999994543,70,single-audio,3,418,1067914,0-0,,,/static/mp3/sad.pos.incon.10.mp3,aud_ton,emotion.incon,incon
5555555,102.66666666666424,70,single-audio,4,419,1069224,0-0,,,/static/mp3/sad.neg.congr.07.mp3,aud_ton,emotion.congr,con
5555555,30.6666666667752,70,single-audio,5,420,1070452,0-0,,,/static/mp3/hap.neg.incon.05.mp3,aud_ton,emotion.incon,incon
5555555,9.333333333415794,70,single-audio,6,421,1071682,0-0,,,/static/mp3/sad.neg.congr.09.mp3,aud_ton,emotion.congr,con
5555555,100.00000000013642,70,single-audio,7,422,1072997,0-0,,,/static/mp3/sad.neg.congr.01.mp3,aud_ton,emotion.congr,con
5555555,-78.66666666654965,70,single-audio,8,423,1074136,0-0,,,/static/mp3/hap.pos.congr.05.mp3,aud_ton,emotion.congr,con
5555555,-59.99999999994543,70,single-audio,9,424,1075276,0-0,,,/static/mp3/hap.neg.incon.01.mp3,aud_ton,emotion.incon,incon
5555555,-59.99999999971806,70,single-audio,10,425,1076410,0-0,,,/static/mp3/hap.neg.incon.08.mp3,aud_ton,emotion.incon,incon
5555555,19.99999999998181,70,single-audio,11,426,1077644,0-0,,,/static/mp3/hap.pos.congr.07.mp3,aud_ton,emotion.congr,con
5555555,41.333333333341216,70,single-audio,12,427,1078895,0-0,,,/static/mp3/hap.neg.incon.09.mp3,aud_ton,emotion.incon,incon
5555555,30.6666666667752,70,single-audio,13,428,1080120,0-0,,,/static/mp3/sad.pos.incon.11.mp3,aud_ton,emotion.incon,incon
5555555,9.333333333415794,70,single-audio,14,429,1081321,0-0,,,/static/mp3/hap.neg.incon.02.mp3,aud_ton,emotion.incon,incon
5555555,49.333333333379414,70,single-audio,15,430,1082571,0-0,,,/static/mp3/sad.neg.congr.06.mp3,aud_ton,emotion.congr,con
5555555,12.000000000170985,70,single-audio,16,431,1083776,0-0,,,/static/mp3/hap.neg.incon.04.mp3,aud_ton,emotion.incon,incon
5555555,30.6666666667752,70,single-audio,17,432,1085018,0-0,,,/static/mp3/hap.pos.congr.04.mp3,aud_ton,emotion.congr,con
5555555,-59.99999999994543,70,single-audio,18,433,1086160,0-0,,,/static/mp3/hap.pos.congr.10.mp3,aud_ton,emotion.congr,con
5555555,20.000000000209184,70,single-audio,19,434,1087373,0-0,,,/static/mp3/hap.neg.incon.07.mp3,aud_ton,emotion.incon,incon
5555555,20.000000000209184,70,single-audio,20,435,1088605,0-0,,,/static/mp3/sad.pos.incon.03.mp3,aud_ton,emotion.incon,incon
5555555,100.00000000013642,70,single-audio,21,436,1089906,0-0,,,/static/mp3/hap.neg.incon.10.mp3,aud_ton,emotion.incon,incon
5555555,-9.33333333318842,70,single-audio,22,437,1091081,0-0,,,/static/mp3/sad.pos.incon.02.mp3,aud_ton,emotion.incon,incon
5555555,60.000000000172804,70,single-audio,23,438,1092347,0-0,,,/static/mp3/sad.pos.incon.08.mp3,aud_ton,emotion.incon,incon
5555555,81.33333333330484,70,single-audio,24,439,1093637,0-0,,,/static/mp3/sad.pos.incon.06.mp3,aud_ton,emotion.incon,incon
5555555,89.33333333357041,70,single-audio,25,440,1094924,0-0,,,/static/mp3/sad.neg.congr.03.mp3,aud_ton,emotion.congr,con
5555555,67.99999999998363,70,single-audio,26,441,1096192,0-0,,,/static/mp3/hap.pos.congr.02.mp3,aud_ton,emotion.congr,con
5555555,49.333333333379414,70,single-audio,27,442,1097457,0-0,,,/static/mp3/hap.pos.congr.11.mp3,aud_ton,emotion.congr,con
5555555,100.00000000013642,70,single-audio,28,443,1098772,0-0,,,/static/mp3/hap.pos.congr.01.mp3,aud_ton,emotion.congr,con
5555555,92.00000000009823,70,single-audio,29,444,1100070,0-0,,,/static/mp3/sad.neg.congr.10.mp3,aud_ton,emotion.congr,con
5555555,89.33333333334303,70,single-audio,30,445,1101363,0-0,,,/static/mp3/sad.pos.incon.01.mp3,aud_ton,emotion.incon,incon
5555555,99.99999999990905,70,single-audio,31,446,1102667,0-0,,,/static/mp3/sad.neg.congr.08.mp3,aud_ton,emotion.congr,con
5555555,-99.99999999990905,70,single-audio,32,447,1103766,0-0,,,/static/mp3/sad.neg.congr.02.mp3,aud_ton,emotion.congr,con
5555555,60.000000000172804,70,single-audio,33,448,1105028,0-0,,,/static/mp3/sad.neg.congr.11.mp3,aud_ton,emotion.congr,con
5555555,60.000000000172804,70,single-audio,34,449,1106282,0-0,,,/static/mp3/hap.neg.incon.06.mp3,aud_ton,emotion.incon,incon
5555555,28.000000000247383,70,single-audio,35,450,1107512,0-0,,,/static/mp3/hap.neg.incon.03.mp3,aud_ton,emotion.incon,incon
5555555,49.333333333379414,70,single-audio,36,451,1108767,0-0,,,/static/mp3/sad.neg.congr.05.mp3,aud_ton,emotion.congr,con
5555555,-99.99999999990905,70,single-audio,37,452,1109866,0-0,,,/static/mp3/sad.pos.incon.04.mp3,aud_ton,emotion.incon,incon
5555555,70.66666666673882,70,single-audio,38,453,1111124,0-0,,,/static/mp3/hap.neg.incon.11.mp3,aud_ton,emotion.incon,incon
5555555,67.99999999998363,70,single-audio,39,454,1112381,0-0,,,/static/mp3/hap.pos.congr.09.mp3,aud_ton,emotion.congr,con
5555555,70.66666666673882,70,single-audio,40,455,1113654,0-0,,,/static/mp3/sad.neg.congr.04.mp3,aud_ton,emotion.congr,con
5555555,100.00000000013642,70,single-audio,41,456,1114941,0-0,,,/static/mp3/sad.pos.incon.05.mp3,aud_ton,emotion.incon,incon
5555555,73.33333333349401,70,single-audio,42,457,1116223,0-0,,,/static/mp3/hap.pos.congr.06.mp3,aud_ton,emotion.congr,con
5555555,81.33333333330484,70,single-audio,43,458,1117499,0-0,,,/static/mp3/sad.pos.incon.07.mp3,aud_ton,emotion.incon,incon
